Sample : 
Scan number: 133

Wavelength: 532
Polarization :    
Power: 0
Mirror sp. : 14
Ch. duration : 0.133
Scan amplitude : 20.1257



5
47
54
55
50
60
58
60
62
67
58
71
62
58
63
74
76
80
68
68
78
95
110
108
101
114
119
116
133
125
149
166
156
179
150
176
208
228
243
248
272
272
291
333
395
405
428
453
541
604
644
770
756
904
985
1109
1222
1362
1591
1811
1901
2233
2377
2610
2769
2893
3023
3129
3040
2921
2800
2702
2339
2177
1923
1798
1594
1437
1269
1154
1038
886
868
786
744
661
597
580
498
500
435
443
379
351
330
311
314
279
244
262
261
245
208
206
218
230
185
183
168
163
152
151
155
154
127
118
150
110
106
112
120
117
121
115
88
98
99
101
94
82
93
83
80
83
83
78
98
70
67
70
67
79
63
54
83
68
56
68
74
49
56
65
66
71
73
56
61
68
61
59
52
51
62
65
63
58
71
63
49
61
48
39
60
53
48
60
52
56
34
0
0
0
1
1
1
0
0
0
0
0
0
1
0
0
1
0
0
0
0
1
0
0
1
0
0
1
0
0
0
0
0
0
0
1
0
0
0
0
1
0
0
1
0
1
1
0
0
0
0
1
0
0
0
0
2
2
3
0
1
2
11
15
26
45
69
113
164
333
712
1970
6144
19667
51709
109665
186039
260481
303502
286844
201457
98937
35033
9206
2046
497
109
22
7
1
5
2
0
0
1
0
0
0
1
0
0
0
0
0
0
0
0
0
1
0
0
0
1
1
1
1
0
0
2
1
0
0
0
0
1
0
0
0
3
0
0
1
0
1
0
0
1
0
0
0
0
0
0
0
0
0
0
0
0
0
0
0
0
1
0
0
0
2
43
55
51
48
69
52
59
47
56
49
48
49
47
54
61
59
67
65
67
62
61
61
57
64
58
69
60
52
64
84
71
65
68
54
76
82
77
69
73
91
75
82
95
91
88
98
76
90
106
93
88
105
98
99
106
120
123
96
141
128
141
121
137
135
165
165
172
161
159
189
182
180
199
199
223
226
249
261
287
303
332
346
369
388
402
420
460
523
541
578
602
748
769
807
883
996
1199
1272
1451
1555
1726
1873
2041
2326
2464
2679
2861
2972
3036
3015
3007
2860
2731
2448
2269
2095
1815
1589
1444
1337
1180
1002
904
746
725
682
630
528
508
488
382
364
365
341
300
254
228
239
214
204
206
190
200
182
145
131
136
130
126
117
128
114
92
123
76
97
78
76
67
80
75
66
70
80
63
67
55
60
42
49
52
50
57
53
54
44